# E (eV)  dos(E)    pdos(E)
  -0.342  0.402E+00  0.402E+00
  -0.242  0.386E+00  0.386E+00
  -0.142  0.374E+00  0.373E+00
  -0.042  0.404E+00  0.403E+00
   0.058  0.460E+00  0.459E+00
   0.158  0.384E+00  0.383E+00
   0.258  0.398E+00  0.397E+00
   0.358  0.385E+00  0.385E+00
   0.458  0.450E+00  0.449E+00
   0.558  0.482E+00  0.481E+00
   0.658  0.532E+00  0.532E+00
   0.758  0.596E+00  0.596E+00
   0.858  0.643E+00  0.642E+00
   0.958  0.612E+00  0.611E+00
   1.058  0.593E+00  0.592E+00
   1.158  0.611E+00  0.610E+00
   1.258  0.646E+00  0.645E+00
   1.358  0.616E+00  0.615E+00
   1.458  0.621E+00  0.620E+00
   1.558  0.628E+00  0.627E+00
   1.658  0.583E+00  0.582E+00
   1.758  0.570E+00  0.569E+00
   1.858  0.579E+00  0.578E+00
   1.958  0.591E+00  0.590E+00
   2.058  0.599E+00  0.598E+00
   2.158  0.617E+00  0.616E+00
   2.258  0.637E+00  0.636E+00
   2.358  0.664E+00  0.662E+00
   2.458  0.712E+00  0.711E+00
   2.558  0.765E+00  0.764E+00
   2.658  0.765E+00  0.764E+00
   2.758  0.724E+00  0.722E+00
   2.858  0.703E+00  0.702E+00
   2.958  0.707E+00  0.705E+00
   3.058  0.747E+00  0.745E+00
   3.158  0.764E+00  0.763E+00
   3.258  0.760E+00  0.758E+00
   3.358  0.790E+00  0.788E+00
   3.458  0.826E+00  0.824E+00
   3.558  0.847E+00  0.845E+00
   3.658  0.866E+00  0.864E+00
   3.758  0.848E+00  0.846E+00
   3.858  0.857E+00  0.855E+00
   3.958  0.895E+00  0.893E+00
   4.058  0.984E+00  0.982E+00
   4.158  0.942E+00  0.940E+00
   4.258  0.932E+00  0.930E+00
   4.358  0.961E+00  0.958E+00
   4.458  0.935E+00  0.933E+00
   4.558  0.993E+00  0.990E+00
   4.658  0.102E+01  0.102E+01
   4.758  0.109E+01  0.108E+01
   4.858  0.107E+01  0.107E+01
   4.958  0.106E+01  0.106E+01
   5.058  0.106E+01  0.106E+01
   5.158  0.106E+01  0.106E+01
   5.258  0.107E+01  0.106E+01
   5.358  0.112E+01  0.112E+01
   5.458  0.124E+01  0.124E+01
   5.558  0.132E+01  0.131E+01
   5.658  0.129E+01  0.129E+01
   5.758  0.120E+01  0.119E+01
   5.858  0.108E+01  0.108E+01
   5.958  0.987E+00  0.984E+00
   6.058  0.990E+00  0.987E+00
   6.158  0.933E+00  0.930E+00
   6.258  0.892E+00  0.889E+00
   6.358  0.844E+00  0.840E+00
   6.458  0.905E+00  0.900E+00
   6.558  0.910E+00  0.905E+00
   6.658  0.876E+00  0.871E+00
   6.758  0.852E+00  0.846E+00
   6.858  0.828E+00  0.822E+00
   6.958  0.805E+00  0.799E+00
   7.058  0.794E+00  0.787E+00
   7.158  0.782E+00  0.775E+00
   7.258  0.762E+00  0.756E+00
   7.358  0.741E+00  0.734E+00
   7.458  0.726E+00  0.719E+00
   7.558  0.712E+00  0.704E+00
   7.658  0.703E+00  0.695E+00
   7.758  0.684E+00  0.676E+00
   7.858  0.666E+00  0.658E+00
   7.958  0.627E+00  0.619E+00
   8.058  0.568E+00  0.560E+00
   8.158  0.486E+00  0.479E+00
   8.258  0.425E+00  0.418E+00
   8.358  0.362E+00  0.355E+00
   8.458  0.298E+00  0.291E+00
   8.558  0.290E+00  0.283E+00
   8.658  0.285E+00  0.278E+00
   8.758  0.282E+00  0.274E+00
   8.858  0.281E+00  0.273E+00
   8.958  0.278E+00  0.270E+00
   9.058  0.272E+00  0.264E+00
   9.158  0.269E+00  0.261E+00
   9.258  0.267E+00  0.259E+00
   9.358  0.287E+00  0.276E+00
   9.458  0.306E+00  0.293E+00
   9.558  0.321E+00  0.307E+00
   9.658  0.338E+00  0.322E+00
   9.758  0.357E+00  0.339E+00
   9.858  0.368E+00  0.349E+00
   9.958  0.377E+00  0.357E+00
  10.058  0.388E+00  0.367E+00
  10.158  0.389E+00  0.367E+00
