# E (eV)   ldos(E)   pdos(E)   
  -0.342  0.924E-01  0.924E-01
  -0.242  0.906E-01  0.906E-01
  -0.142  0.874E-01  0.874E-01
  -0.042  0.922E-01  0.922E-01
   0.058  0.908E-01  0.908E-01
   0.158  0.715E-01  0.715E-01
   0.258  0.686E-01  0.686E-01
   0.358  0.552E-01  0.552E-01
   0.458  0.598E-01  0.598E-01
   0.558  0.617E-01  0.617E-01
   0.658  0.674E-01  0.674E-01
   0.758  0.755E-01  0.755E-01
   0.858  0.807E-01  0.807E-01
   0.958  0.749E-01  0.749E-01
   1.058  0.696E-01  0.696E-01
   1.158  0.727E-01  0.727E-01
   1.258  0.785E-01  0.785E-01
   1.358  0.745E-01  0.745E-01
   1.458  0.762E-01  0.762E-01
   1.558  0.780E-01  0.780E-01
   1.658  0.675E-01  0.675E-01
   1.758  0.643E-01  0.643E-01
   1.858  0.620E-01  0.620E-01
   1.958  0.602E-01  0.602E-01
   2.058  0.587E-01  0.587E-01
   2.158  0.579E-01  0.579E-01
   2.258  0.575E-01  0.575E-01
   2.358  0.572E-01  0.572E-01
   2.458  0.577E-01  0.577E-01
   2.558  0.594E-01  0.594E-01
   2.658  0.578E-01  0.578E-01
   2.758  0.529E-01  0.529E-01
   2.858  0.495E-01  0.495E-01
   2.958  0.479E-01  0.479E-01
   3.058  0.505E-01  0.505E-01
   3.158  0.510E-01  0.510E-01
   3.258  0.524E-01  0.524E-01
   3.358  0.555E-01  0.555E-01
   3.458  0.563E-01  0.563E-01
   3.558  0.545E-01  0.545E-01
   3.658  0.526E-01  0.526E-01
   3.758  0.499E-01  0.499E-01
   3.858  0.484E-01  0.484E-01
   3.958  0.491E-01  0.491E-01
   4.058  0.512E-01  0.512E-01
   4.158  0.477E-01  0.477E-01
   4.258  0.472E-01  0.472E-01
   4.358  0.481E-01  0.481E-01
   4.458  0.459E-01  0.459E-01
   4.558  0.462E-01  0.462E-01
   4.658  0.447E-01  0.447E-01
   4.758  0.453E-01  0.453E-01
   4.858  0.445E-01  0.445E-01
   4.958  0.429E-01  0.429E-01
   5.058  0.414E-01  0.414E-01
   5.158  0.401E-01  0.401E-01
   5.258  0.383E-01  0.383E-01
   5.358  0.373E-01  0.373E-01
   5.458  0.353E-01  0.353E-01
   5.558  0.335E-01  0.335E-01
   5.658  0.317E-01  0.317E-01
   5.758  0.278E-01  0.278E-01
   5.858  0.256E-01  0.256E-01
   5.958  0.234E-01  0.234E-01
   6.058  0.217E-01  0.217E-01
   6.158  0.197E-01  0.197E-01
   6.258  0.181E-01  0.181E-01
   6.358  0.166E-01  0.166E-01
   6.458  0.154E-01  0.154E-01
   6.558  0.142E-01  0.142E-01
   6.658  0.131E-01  0.131E-01
   6.758  0.120E-01  0.120E-01
   6.858  0.110E-01  0.110E-01
   6.958  0.994E-02  0.994E-02
   7.058  0.896E-02  0.896E-02
   7.158  0.806E-02  0.806E-02
   7.258  0.723E-02  0.723E-02
   7.358  0.642E-02  0.642E-02
   7.458  0.568E-02  0.568E-02
   7.558  0.493E-02  0.493E-02
   7.658  0.420E-02  0.420E-02
   7.758  0.347E-02  0.347E-02
   7.858  0.283E-02  0.283E-02
   7.958  0.224E-02  0.224E-02
   8.058  0.172E-02  0.172E-02
   8.158  0.133E-02  0.133E-02
   8.258  0.100E-02  0.100E-02
   8.358  0.795E-03  0.795E-03
   8.458  0.707E-03  0.707E-03
   8.558  0.664E-03  0.664E-03
   8.658  0.626E-03  0.626E-03
   8.758  0.597E-03  0.597E-03
   8.858  0.575E-03  0.575E-03
   8.958  0.554E-03  0.554E-03
   9.058  0.539E-03  0.539E-03
   9.158  0.538E-03  0.538E-03
   9.258  0.719E-03  0.719E-03
   9.358  0.352E-02  0.352E-02
   9.458  0.634E-02  0.634E-02
   9.558  0.809E-02  0.809E-02
   9.658  0.986E-02  0.986E-02
   9.758  0.114E-01  0.114E-01
   9.858  0.122E-01  0.122E-01
   9.958  0.131E-01  0.131E-01
  10.058  0.142E-01  0.142E-01
  10.158  0.140E-01  0.140E-01
