# E (eV)   ldos(E)   pdos(E)   
  -0.342  0.230E-02  0.230E-02
  -0.242  0.183E-02  0.183E-02
  -0.142  0.232E-02  0.232E-02
  -0.042  0.370E-02  0.370E-02
   0.058  0.851E-02  0.851E-02
   0.158  0.812E-02  0.812E-02
   0.258  0.125E-01  0.125E-01
   0.358  0.165E-01  0.165E-01
   0.458  0.205E-01  0.205E-01
   0.558  0.216E-01  0.216E-01
   0.658  0.226E-01  0.226E-01
   0.758  0.231E-01  0.231E-01
   0.858  0.233E-01  0.233E-01
   0.958  0.233E-01  0.233E-01
   1.058  0.236E-01  0.236E-01
   1.158  0.238E-01  0.238E-01
   1.258  0.237E-01  0.237E-01
   1.358  0.236E-01  0.236E-01
   1.458  0.235E-01  0.235E-01
   1.558  0.237E-01  0.237E-01
   1.658  0.237E-01  0.237E-01
   1.758  0.235E-01  0.235E-01
   1.858  0.245E-01  0.245E-01
   1.958  0.253E-01  0.253E-01
   2.058  0.257E-01  0.257E-01
   2.158  0.263E-01  0.263E-01
   2.258  0.270E-01  0.270E-01
   2.358  0.277E-01  0.277E-01
   2.458  0.293E-01  0.293E-01
   2.558  0.312E-01  0.312E-01
   2.658  0.304E-01  0.304E-01
   2.758  0.278E-01  0.278E-01
   2.858  0.265E-01  0.265E-01
   2.958  0.264E-01  0.264E-01
   3.058  0.273E-01  0.273E-01
   3.158  0.274E-01  0.274E-01
   3.258  0.255E-01  0.255E-01
   3.358  0.245E-01  0.245E-01
   3.458  0.248E-01  0.248E-01
   3.558  0.248E-01  0.248E-01
   3.658  0.253E-01  0.253E-01
   3.758  0.253E-01  0.253E-01
   3.858  0.251E-01  0.251E-01
   3.958  0.248E-01  0.248E-01
   4.058  0.246E-01  0.246E-01
   4.158  0.208E-01  0.208E-01
   4.258  0.195E-01  0.195E-01
   4.358  0.191E-01  0.191E-01
   4.458  0.178E-01  0.178E-01
   4.558  0.188E-01  0.188E-01
   4.658  0.183E-01  0.183E-01
   4.758  0.175E-01  0.175E-01
   4.858  0.161E-01  0.161E-01
   4.958  0.149E-01  0.149E-01
   5.058  0.138E-01  0.138E-01
   5.158  0.131E-01  0.131E-01
   5.258  0.122E-01  0.122E-01
   5.358  0.115E-01  0.115E-01
   5.458  0.108E-01  0.108E-01
   5.558  0.972E-02  0.972E-02
   5.658  0.902E-02  0.902E-02
   5.758  0.786E-02  0.786E-02
   5.858  0.732E-02  0.732E-02
   5.958  0.639E-02  0.639E-02
   6.058  0.579E-02  0.579E-02
   6.158  0.548E-02  0.548E-02
   6.258  0.540E-02  0.540E-02
   6.358  0.704E-02  0.704E-02
   6.458  0.324E-01  0.324E-01
   6.558  0.377E-01  0.377E-01
   6.658  0.350E-01  0.350E-01
   6.758  0.342E-01  0.342E-01
   6.858  0.340E-01  0.340E-01
   6.958  0.339E-01  0.339E-01
   7.058  0.342E-01  0.342E-01
   7.158  0.342E-01  0.342E-01
   7.258  0.328E-01  0.328E-01
   7.358  0.323E-01  0.323E-01
   7.458  0.318E-01  0.318E-01
   7.558  0.316E-01  0.316E-01
   7.658  0.315E-01  0.315E-01
   7.758  0.314E-01  0.314E-01
   7.858  0.312E-01  0.312E-01
   7.958  0.309E-01  0.309E-01
   8.058  0.301E-01  0.301E-01
   8.158  0.299E-01  0.299E-01
   8.258  0.296E-01  0.296E-01
   8.358  0.293E-01  0.293E-01
   8.458  0.289E-01  0.289E-01
   8.558  0.286E-01  0.286E-01
   8.658  0.283E-01  0.283E-01
   8.758  0.280E-01  0.280E-01
   8.858  0.277E-01  0.277E-01
   8.958  0.274E-01  0.274E-01
   9.058  0.267E-01  0.267E-01
   9.158  0.262E-01  0.262E-01
   9.258  0.262E-01  0.262E-01
   9.358  0.323E-01  0.323E-01
   9.458  0.368E-01  0.368E-01
   9.558  0.385E-01  0.385E-01
   9.658  0.398E-01  0.398E-01
   9.758  0.405E-01  0.405E-01
   9.858  0.402E-01  0.402E-01
   9.958  0.398E-01  0.398E-01
  10.058  0.395E-01  0.395E-01
  10.158  0.380E-01  0.380E-01
